{
  "resourceType": "Bundle",
  "type": "transaction",
  "entry": [
    {
      "resource": {
        "resourceType": "Composition",
        "id": "b182e827-4692-4fa2-8312-6baafc6dff28",
        "status": "preliminary",
        "type": {
          "text": "EvidenceReport"
        },
        "date": "2025-09-18T04:21:08.530086+00:00",
        "author": [
          {
            "display": "USDM"
          }
        ],
        "title": "-",
        "section": [
          {
            "title": "-",
            "code": {
              "text": "section-"
            },
            "text": {
              "status": "generated",
              "div": "<div xmlns=\"http://www.w3.org/1999/xhtml\"><p>INTERNATIONAL COUNCIL FOR HARMONISATION OF TECHNICAL REQUIREMENTS FOR PHARMACEUTICALS FOR HUMAN USE</p><p>ICH HARMONISED GUIDELINE</p><p>Clinical electronic Structured Harmonised Protocol</p><p>(CeSHarP)</p><p>ASP8062 Example</p><table class=\"ich-m11-title-page-table\"><tr><td><p>Full Title:</p></td><td><p>A Phase 1 Randomized, Placebo-controlled Study to Assess the Safety, Tolerability and Pharmacokinetics of Multiple Doses of ASP8062 with a Single Dose of Morphine in Recreational Opioid Using Participants </p></td></tr><tr><td><p>Sponsor Protocol Identifier:</p></td><td><p>8062-CL-2002</p></td></tr><tr><td><p>Original Protocol: </p></td><td><p>No</p></td></tr><tr><td><p>Version Number:</p></td><td><p>1.1</p></td></tr><tr><td><p>Version Date:</p></td><td><p>30 JUL 2020</p></td></tr><tr><td><p>Amendment Identifier:</p></td><td><p>1.1</p></td></tr><tr><td><p>Amendment Scope:</p></td><td><p>Local US </p></td></tr><tr><td><p>Compound Code(s): </p></td><td><p>ASP8062</p></td></tr><tr><td><p>Trial Phase: </p></td><td><p>Phase I </p></td></tr><tr><td><p>Sponsor Name and Address: </p></td><td><p>Astellas Pharma </p><p>Global Development Inc. </p><p>1 Astellas Way Northbrook, IL 60062, US</p></td></tr><tr><td><p>Regulatory Agency Identifier Number(s):</p></td><td><p>IND 146215</p></td></tr><tr><td><p>Sponsor Approval Date: </p></td><td><p>30/JUL/2020</p></td></tr></table><p>Sponsor Signatory:</p><img alt=\"alt text\" src=\"data:image/png;base64,\"/><p>Medical Expert Contact: </p><img alt=\"alt text\" src=\"data:image/png;base64,\"/><p> SAE Reporting Method: </p><img alt=\"alt text\" src=\"data:image/png;base64,\"/><p>Amendment Details</p><p>This is the first protocol amendment.</p><p>Current Amendment</p><p>The table below describes the current amendment.</p><table class=\"ich-m11-table\"><tr><td><p>Approximate 0 Enrolled at time of Sponsor Approval:</p></td><td colspan=\"3\"><p>Approximate 0 enrolled </p></td></tr><tr><td><p>{Reason(s) for Amendment:}</p></td><td colspan=\"2\"><p>Primary: Administrative</p></td><td><p>Secondary: Not applicable</p></td></tr><tr><td><p>{Amendment Summary:}</p></td><td colspan=\"3\"><p>This is a nonsubstantial amendment.amuuuSummStnent ementmmdmentmddndndmendment Summary </p></td></tr><tr><td colspan=\"2\"><p>Is this amendment likely to have a substantial impact on the safety or rights of the participants?</p></td><td colspan=\"2\"><p>No</p></td></tr><tr><td colspan=\"2\"><p>Is this amendment likely to have a substantial impact on the reliability and robustness of the data generated in the clinical trial?</p></td><td colspan=\"2\"><p>No</p></td></tr></table><p>Overview of Changes in the Current Amendment: </p><table class=\"ich-m11-table\"><tr><td><p>Description of Change</p></td><td><p>{Brief Rationale for Change}</p></td><td><p>Section # and Name</p></td></tr><tr><td><p>Update screening language: </p><p>Edit the rescreening language</p></td><td><p>To allow for the repeat of screening assessments within the screening window or to allow a subject to rescreen once for the study. Due to the nature of the participant population and the study design, subject safety and data integrity will not be impacted</p></td><td><p>5.4.1 Rescreening</p></td></tr><tr><td><p>Clarify inclusion and exclusion criteria: </p><p>Move exclusion criterion 18 to the inclusion criteria and clarify the CYP450 enzymes that are excluded for exclusion criterion 19.</p></td><td><p>Previous exclusion 18 should be answered affirmatively in order for the subject to be eligible for participation; as a result, this exclusion should be listed as an inclusion. Exclusion 19 excluded all inducers of metabolism; however, after consideration, it is only necessary to exclude inducers of CYP3A4.</p></td><td><p>5.2 Exclusion Criteria</p></td></tr><tr><td><p>Clarify procedure for continuous end tidal CO2:</p><p>Add clarification that subjects may remove cannula to dose or eat</p></td><td><p>The timepoints overlap for the collection of end tidal CO2 and it would not be possible for the subject to dose or eat with the cannula in place.</p></td><td><p>7.2.8 Continuous and Spot End Tidal Carbon Dioxide, Table 5, Established Limits for End Tidal Carbon Dioxide</p></td></tr><tr><td><p>Lower the respiratory rate alarm for continuous end tidal CO2 alarms: </p><p>The alarm for respiratory rate low was 10 bpm and is now 6 bpm.</p></td><td><p>Generally, respiratory rates between 6 and 10 are not clinically relevant. A low respiratory rate alarm of 6 will allow a more accurate clinical determination of a true signal.</p></td><td><p>7.2.8 Continuous and Spot End Tidal Carbon Dioxide, Table 5, Established Limits</p></td></tr><tr><td><p>Edit Spot CO2 respiratory rate values: </p><p>The spot values are lowered to start at &gt; 24, and continue with increments of 4 bpm: &gt;28, &gt;32, and &gt;36.</p></td><td><p>This change is made to align with the protocol, Table 7, alarm values.</p></td><td><p>9.4.3.3 Vital Signs, Table 7, Criteria for Respiratory Rate</p></td></tr></table><p>Table of Contents</p></div>"
            }
          }
        ]
      },
      "request": {
        "method": "PUT",
        "url": "Composition/b182e827-4692-4fa2-8312-6baafc6dff28"
      }
    },
    {
      "resource": {
        "resourceType": "Composition",
        "id": "d7994077-7d7b-433a-8b1c-7c21a95a1092",
        "status": "preliminary",
        "type": {
          "text": "EvidenceReport"
        },
        "date": "2025-09-18T04:21:08.530086+00:00",
        "author": [
          {
            "display": "USDM"
          }
        ],
        "title": "Protocol Summary",
        "section": [
          {
            "title": "Protocol Summary",
            "code": {
              "text": "section1-protocol-summary"
            },
            "section": [
              {
                "title": "Protocol Synopsis",
                "code": {
                  "text": "section1.1-protocol-synopsis"
                },
                "section": [
                  {
                    "title": "Primary and Secondary Objectives and Estimands",
                    "code": {
                      "text": "section1.1.1-primary-and-secondary-objectives-and-estimands"
                    },
                    "text": {
                      "status": "generated",
                      "div": "<div xmlns=\"http://www.w3.org/1999/xhtml\"><img alt=\"alt text\" src=\"data:image/png;base64,\"/><p>Estimands Not applicable.</p></div>"
                    }
                  },
                  {
                    "title": "Overall Design",
                    "code": {
                      "text": "section1.1.2-overall-design"
                    },
                    "text": {
                      "status": "generated",
                      "div": "<div xmlns=\"http://www.w3.org/1999/xhtml\"><p>Key aspects of the trial design are summarised below.</p><table class=\"ich-m11-table\"><tr><td><p>Intervention Model:</p></td><td><p>Open Label</p></td><td><p>Population Type:</p></td><td><p>Without disease</p></td></tr><tr><td><p>Control Type:</p></td><td><p>Placebo controlled</p></td><td><p>Population Diagnosis or Condition:</p></td><td><p>Opiod use</p></td></tr><tr><td><p>Control Description:</p></td><td><p>Placebo</p></td><td><p>Population Age:</p></td><td><p>Minimum:  18 years</p><p>Maximum: 60 years</p></td></tr><tr><td><p>Intervention Assignment Method:</p></td><td><p>Randomization</p></td><td><p>Site Distribution and Geographic Scope:</p></td><td><p>Single site</p></td></tr></table><p>Number of Arms: 3</p><p>Trial Blind Schema: Double-blind</p><p>Blinded roles: The following roles indicated will not be made aware of the treatment group assignment during the trial: participant, investigator</p><p>Number of Participants:  </p><p>Approximately 24 male and female participants to complete at least 18 participants. An attempt will be made to enroll 1 female participant for every 3 male participants.</p><p>Duration</p><p>The anticipated duration of the study for each participant, including screening and follow-up, is approximately 53 days.</p><p>Committees:  </p><p>Independent Committees:  Not applicable.</p></div>"
                    }
                  }
                ]
              },
              {
                "title": "Trial Schema",
                "code": {
                  "text": "section1.2-trial-schema"
                },
                "text": {
                  "status": "generated",
                  "div": "<div xmlns=\"http://www.w3.org/1999/xhtml\"><img alt=\"alt text\" src=\"data:image/png;base64,\"/><p>This will be a randomized, participant- and investigator-blinded, placebo-controlled, single sequence study comprising of male and female recreational opioid-using participants. Participants will be screened for up to 28 days prior to first investigational product administration. Eligible participants will be admitted to the clinical unit on day -1 and will be residential for a single period of 17 days/16 nights. After randomization, participants will receive multiple oral doses of ASP8062 or placebo (2:1 ratio) on days 1 through 10. On day 10, all participants will also receive a single oral dose of morphine immediately after the ASP8062 or placebo dose followed by a 144-hour in-house blood sampling period. Scheduled safety and tolerability assessments will be conducted as indicated in the Schedule of Assessments [Table 1]. Participants are to remain awake, seated or semirecumbent and avoid lying on either the left or right side for at least 4 hours postdose on days 9 and 10. Participants will be discharged from the clinical unit on day 16 on the condition that all required assessments have been performed and that there are no medical reasons for a longer stay in the clinical unit. The study will be completed with an end-of-study visit (ESV). The ESV will take place 5 to 9 days after the day 16 pharmacokinetic sample is collected or at early discontinuation/termination from the study.</p></div>"
                }
              },
              {
                "title": "Schedule of Activities",
                "code": {
                  "text": "section1.3-schedule-of-activities"
                },
                "text": {
                  "status": "generated",
                  "div": "<div xmlns=\"http://www.w3.org/1999/xhtml\"><img alt=\"alt text\" src=\"data:image/png;base64,\"/><img alt=\"alt text\" src=\"data:image/png;base64,\"/><img alt=\"alt text\" src=\"data:image/png;base64,\"/><img alt=\"alt text\" src=\"data:image/png;base64,\"/><img alt=\"alt text\" src=\"data:image/png;base64,\"/><img alt=\"alt text\" src=\"data:image/png;base64,\"/></div>"
                }
              }
            ]
          }
        ]
      },
      "request": {
        "method": "PUT",
        "url": "Composition/d7994077-7d7b-433a-8b1c-7c21a95a1092"
      }
    },
    {
      "resource": {
        "resourceType": "Organization",
        "id": "a8184259-52ae-43a4-8f7a-7d66c6b4d92a",
        "name": "Astellas Pharma",
        "contact": [
          {
            "address": {
              "id": "Address_1",
              "text": "Global Development Inc., 1 Astellas Way Northbrook, IL 60062, US",
              "line": [
                "Global Development Inc.",
                "1 Astellas Way Northbrook, IL 60062, US"
              ]
            }
          }
        ]
      },
      "request": {
        "method": "PUT",
        "url": "Organization/a8184259-52ae-43a4-8f7a-7d66c6b4d92a"
      }
    },
    {
      "resource": {
        "resourceType": "ResearchStudy",
        "id": "dfb246a6-13a9-4443-bee2-9bb64ac095fb",
        "meta": {
          "profile": [
            "http://hl7.org/fhir/uv/pharmaceutical-research-protocol/StructureDefinition/m11-research-study-profile"
          ]
        },
        "extension": [
          {
            "url": "http://hl7.org/fhir/uv/pharmaceutical-research-protocol/study-amendment",
            "valueCoding": {
              "system": "http://ncicb.nci.nih.gov/xml/owl/EVS/Thesaurus.owl",
              "code": "C49488",
              "display": "Yes"
            }
          },
          {
            "extension": [
              {
                "url": "scope",
                "valueCode": "Global"
              }
            ],
            "url": "http://hl7.org/fhir/uv/pharmaceutical-research-protocolStructureDefinition/protocol-amendment"
          },
          {
            "url": "http://hl7.org/fhir/uv/pharmaceutical-research-protocol/StructureDefinition/narrative-elements",
            "valueReference": {
              "reference": "Composition/b182e827-4692-4fa2-8312-6baafc6dff28"
            }
          },
          {
            "url": "http://hl7.org/fhir/uv/pharmaceutical-research-protocol/StructureDefinition/narrative-elements",
            "valueReference": {
              "reference": "Composition/d7994077-7d7b-433a-8b1c-7c21a95a1092"
            }
          }
        ],
        "identifier": [
          {
            "type": {
              "text": "Pharmaceutical Company"
            },
            "system": "https://example.org/sponsor-identifier",
            "value": "8062-CL-2002"
          },
          {
            "type": {
              "coding": [
                {
                  "system": "http://ncicb.nci.nih.gov/xml/owl/EVS/Thesaurus.owl",
                  "code": "C218477",
                  "display": "Amendment Identifier"
                }
              ]
            },
            "system": "https://example.org/amendment-identifier",
            "value": "1.1"
          },
          {
            "type": {
              "text": "Regulatory Agency"
            },
            "system": "https://example.org/sponsor-identifier",
            "value": "146215"
          }
        ],
        "version": "1.1",
        "title": "A Phase 1 Randomized, Placebo-controlled Study to Assess the Safety, Tolerability and Pharmacokinetics of Multiple Doses of ASP8062 with a Single Dose of Morphine in Recreational Opioid Using Participants",
        "date": "2020-07-30",
        "status": "active",
        "phase": {
          "coding": [
            {
              "system": "http://ncicb.nci.nih.gov/xml/owl/EVS/Thesaurus.owl",
              "code": "C15600",
              "display": "Phase I Trial"
            }
          ],
          "text": "Phase I Trial"
        },
        "associatedParty": [
          {
            "role": {
              "coding": [
                {
                  "system": "http://hl7.org/fhir/research-study-party-role",
                  "code": "sponsor",
                  "display": "sponsor"
                }
              ]
            },
            "party": {
              "reference": "Organization/a8184259-52ae-43a4-8f7a-7d66c6b4d92a"
            }
          }
        ]
      },
      "request": {
        "method": "PUT",
        "url": "ResearchStudy/dfb246a6-13a9-4443-bee2-9bb64ac095fb"
      }
    }
  ]
}